Folder: EstraFitEXA/Tutorial_XAFS/ok_Gold_Foil.20K

Note: README.md
# EstraFitEXA
interface for EXAFS program Estra and FitEXA

File: Au_bulk_20k.dat
# XDI/1.0 Athena/0.9.21
# Element.edge:                  L3
# Element.symbol:                Au
# Column.1:                      energy eV
# Column.2:                      xmu
# Column.3:                      bkg
# Column.4:                      pre_edge
# Column.5:                      post_edge
# Column.6:                      der
# Column.7:                      sec
# Column.8:                      i0
# Athena.e0:                     11920.1
# Athena.eshift:                 0
# Athena.rbkg:                   1.0
# Athena.importance:             1
# Athena.standard:               None
# Athena.bkg_kweight:            2
# Athena.edge_step:              0.9178349
# Athena.fixed_step:             no
# Athena.pre_edge_range:         -150.000 -30.000
# Athena.pre_edge_line:          4.952595 - 0.00032483 * E
# Athena.normalization_range:    150.000 1676.466
# Athena.post_edge_polynomial:   13.1101 - 0.00131986 * E + 3.25231e-08 * E^2 + 0 * E^3
# Athena.spline_range_energy:    0.000 1776.434
# Athena.clamps:                 0 24
# Athena.spline_range_k:         0.000 21.593
# Athena.kweight:                2
# Athena.window:                 hanning
# Athena.phase_correction:       no
# Athena.k_range:                3.000 19.593
# Athena.dk:                     1
# Athena.r_range:                1 3
# Athena.dr:                     0.0
# Athena.window:                 hanning
# Athena.plot_multiplier:        1
# Athena.y_offset:               0
# ///
#------------------------
#   e         xmu        bkg        pre_edge        post_edge        der        sec        i0
  11699.999        1.16398        1.16398        1.15209        2.11984      -0.000466395  -3.41349e-07    1
  11770.339        1.13189        1.13189        1.12924        2.0807      -0.000406812   4.00928e-07    1
  11841.933        1.10358        1.10358        1.10598        2.04118      -0.000336765   2.75946e-06    1
  11902.168        1.10464        1.10464        1.08642        2.0082       0.00181968   0.000570434    1
  11909.118        1.12922        1.12922        1.08416        2.00441       0.00591631   0.00105725    1
  11916.049        1.23796        1.23796        1.08191        2.00063       0.0452392   0.0199698    1
  11923.048        1.75528        1.65984        1.07963        1.99682       0.0270229  -0.0172491    1
  11930.040        1.82026        1.8487        1.07736        1.99301       0.0190698  -8.76164e-05    1
  11937.003        1.86783        1.91038        1.0751        1.98923       0.00280832   0.0030186    1
  11944.047        1.97752        1.93777        1.07281        1.9854       0.0332174  -0.00226814    1
  11951.083        1.9625        1.95572        1.07053        1.98158      -0.0162617   0.00524439    1
  11958.078        1.92117        1.96577        1.06825        1.97779      -0.00363482   0.00335905    1
  11965.114        1.97779        1.96952        1.06597        1.97398       0.0146274   0.000168693    1
  11972.233        2.00854        1.96838        1.06366        1.97012      -0.00836134  -0.000801718    1
  11979.321        1.96493        1.96384        1.06135        1.96629      -0.00428618   0.000847075    1
  11986.556        1.94055        1.9573        1.059        1.96238      -0.00606821  -0.000801303    1
  11993.599        1.91011        1.95063        1.05672        1.95858       0.000514026   0.000843729    1
  12000.655        1.92793        1.94458        1.05442        1.95477       0.00546458   0.000991638    1
  12007.778        1.9663        1.9391        1.05211        1.95093       0.00127481  -0.00112065    1
  12014.911        1.9531        1.93419        1.04979        1.94709      -0.0033604   6.86525e-05    1
  12023.950        1.93371        1.9287        1.04686        1.94223      -6.17131e-05   0.000361335    1
  12038.001        1.92266        1.92146        1.04229        1.93468      -0.00328501  -0.000332848    1
  12051.974        1.89226        1.91541        1.03775        1.92718       0.000953138   0.000483315    1
  12066.154        1.9164        1.9099        1.03315        1.91959       0.000892924  -0.000136071    1
  12080.403        1.91392        1.90448        1.02852        1.91197      -0.00123777   1.30027e-05    1
  12094.616        1.91689        1.89877        1.0239        1.90439       0.000153603  -0.000512681    1
  12108.913        1.87554        1.89268        1.01926        1.89677      -0.00214486   0.000556479    1
  12123.454        1.86646        1.88616        1.01454        1.88904       1.41136e-05   9.75871e-05    1
  12137.643        1.8792        1.87954        1.00993        1.88151       0.0020095   7.60751e-05    1
  12151.889        1.9081        1.87268        1.0053        1.87396      -0.00023511  -0.000593326    1
  12166.396        1.86887        1.86553        1.00059        1.86629      -0.00405908  -0.000222637    1
  12180.935        1.83369        1.85822       0.995864        1.85861       0.000989011   0.000382015    1
  12195.523        1.84502        1.85082       0.991125        1.85092      -0.002353  -0.000313895    1
  12210.076        1.84072        1.8434       0.986398        1.84326       0.00212585   2.03777e-05    1
  12224.579        1.86495        1.83601       0.981687        1.83565       0.000643142  -0.000392523    1
  12239.160        1.83227        1.82857       0.97695        1.828      -0.0039666   0.000136894    1
  12261.263        1.8085        1.81729       0.969771        1.81644       0.00108649  -4.93899e-05    1
  12282.593        1.79574        1.80639       0.962842        1.80532      -0.00130309   0.000252624    1
  12304.008        1.80866        1.79545       0.955886        1.79418      -0.00033811  -6.92848e-05    1
  12325.532        1.79904        1.78443       0.948894        1.78301      -0.00238899  -0.000300604    1
  12347.163        1.74718        1.77334       0.941868        1.77182       0.000338323   0.000222146    1
  12368.777        1.76611        1.76223       0.934847        1.76066       0.000152642   1.03509e-05    1
  12390.512        1.7606        1.75105       0.927787        1.74948      -0.000581017   0.000110278    1
  12412.173        1.74332        1.73989       0.920751        1.73836      -0.00158807   7.53891e-05    1
  12434.223        1.71977        1.72852       0.913588        1.72708      -0.000813059  -3.52715e-05    1
  12456.162        1.70777        1.71721       0.906462        1.71588       0.000531906   1.5767e-05    1
  12478.357        1.71147        1.70578       0.899252        1.70458       0.000356105  -2.44555e-05    1
  12500.628        1.71054        1.69433       0.892018        1.69328      -0.000644332  -0.000122654    1
  12522.829        1.67741        1.68294       0.884806        1.68205      -0.00171268   0.000108339    1
  12545.144        1.66595        1.67152       0.877558        1.67079      -0.00017206  -5.90292e-05    1
  12567.599        1.64292        1.66007       0.870264        1.65949      -0.000959501   0.000173485    1
  12590.135        1.6559        1.64862       0.862943        1.64819       0.00121393  -4.12885e-05    1
  12612.684        1.65985        1.63721       0.855619        1.63691      -0.00100398  -9.86464e-05    1
  12635.294        1.61722        1.62582       0.848274        1.62563      -0.00187986   0.000148852    1
  12658.048        1.60526        1.61439       0.840883        1.61432       0.000232167  -2.60153e-05    1
  12681.031        1.5976        1.60289       0.833418        1.60292      -0.000365686   1.26263e-05    1
  12703.845        1.59014        1.59152       0.826007        1.59165      -0.000199749   4.56548e-05    1
  12727.165        1.59041        1.57993       0.818432        1.58016       0.000222601  -1.85011e-05    1
  12750.464        1.57816        1.56839       0.810864        1.56871      -0.000827672  -3.32859e-05    1
  12773.717        1.55186        1.55691       0.80331        1.55732      -0.00111474   2.43685e-05    1
  12797.150        1.53321        1.54538       0.795699        1.54588      -0.000257057   1.53477e-05    1
  12820.628        1.53048        1.53386       0.788072        1.53446      -0.000173986   1.02563e-05    1
  12844.286        1.52381        1.52229       0.780388        1.52298      -0.000364863   3.25699e-05    1
  12867.870        1.5243        1.51079       0.772727        1.51157      -6.16085e-05  -3.76295e-05    1
  12891.479        1.50104        1.49933       0.765058        1.50019      -0.00149259   6.05314e-05    1
  12915.326        1.48449        1.48779       0.757312        1.48873      -0.000588319  -5.76941e-05    1
  12939.136        1.46596        1.47633       0.749577        1.47733      -0.000711744   1.35901e-05    1
  12963.162        1.45849        1.4648       0.741773        1.46585      -6.70418e-05   3.31837e-05    1
  12987.206        1.46298        1.45333       0.733963        1.45441       6.86847e-05  -4.90471e-05    1
  13016.308        1.44666        1.43952       0.72451        1.44061      -0.000671148  -4.53771e-05    1
  13044.786        1.42123        1.42609       0.715259        1.42716      -0.000652012   7.99683e-05    1
  13073.320        1.41641        1.41272       0.70599        1.41374      -0.000957408  -8.77177e-05    1
  13101.974        1.39094        1.39938       0.696683        1.40032      -0.000175612   4.1551e-06    1
  13130.687        1.38347        1.3861       0.687356        1.38692       0.000117854   2.86779e-05    1
  13159.597        1.38406        1.3728       0.677965        1.37348      -0.000781241  -3.71891e-05    1
  13188.515        1.36034        1.35957       0.668572        1.36009      -0.000653543   2.38081e-05    1
  13217.897        1.3433        1.34619       0.659027        1.34654      -0.000801887   1.68906e-05    1
  13247.444        1.32946        1.33279       0.64943        1.33298      -0.000528063  -2.06584e-05    1
  13276.911        1.31618        1.31948       0.639858        1.31951      -9.41585e-05  -1.58721e-06    1
  13306.819        1.30771        1.30601       0.630143        1.30589      -0.000146025   1.82776e-05    1
  13336.791        1.29908        1.29255       0.620407        1.2923      -0.000677988  -3.88653e-05    1
  13366.785        1.28037        1.27911       0.610664        1.27876      -0.000436775  -2.1299e-05    1
  13396.789        1.26218        1.2657       0.600918        1.26528      -0.000499493   1.18128e-05    1
  13426.948        1.24961        1.25226       0.591122        1.25178      -0.000386757   9.95638e-06    1
  13457.414        1.23734        1.23874       0.581225        1.23821      -0.000268367   1.40557e-05    1
  13487.845        1.22875        1.22531       0.57134        1.22471      -0.000453791  -2.14096e-05    1
  13530.230        1.20996        1.20677       0.557572        1.20602      -0.000462946  -6.29141e-06    1
  13572.905        1.1876        1.18833       0.54371        1.18731      -0.000533326  -9.93427e-07    1
  13615.952        1.16492        1.17       0.529727        1.16856      -0.000383896   8.80311e-06    1
  13659.287        1.15643        1.15188       0.515651        1.1498      -0.000426464  -3.24547e-05    1
  13696.550        1.1369        1.13659       0.503547        1.13377      -0.000359663   3.86891e-06    1